Folder: Experimental-Data/XRD_data

Note: README.md
# Figures




# If you use this data in your work, we recommend you to cite the following article:

# H. B. Mamo et al., “Prototyping Ti2Cu intermetallic grain growth heterogeneously in Ti6Al4V matrix through laser additive manufacturing,” Materials &amp; Design, vol. 246, p. 113312, Oct. 2024, doi: 10.1016/j.matdes.2024.113312.

File: Cu_powder.ASC
5.00526 3633.8
5.42926 3412.03
5.85326 3227.69
6.27726 3121.77
6.70126 3062.78
7.12526 2993.71
7.54926 2917.64
7.97326 2756.63
8.39726 2590.67
8.82126 2522.23
9.24526 2485.09
9.66926 2357.97
10.0933 2202.73
10.5173 2261.04
10.9413 2128.39
11.3653 2141.74
11.7893 2049.08
12.2133 2037.4
12.6373 2072.87
13.0613 2017.26
13.4853 2078.69
13.9093 2043.07
14.3333 2031.6
14.7573 2025.17
15.1813 2012.46
15.6053 2088.53
16.0293 2099.27
16.4533 2056.62
16.8773 2142.68
17.3013 2145.3
17.7253 2120.08
18.1493 2119.75
18.5733 2112.1
18.9973 2151.49
19.4213 2183.68
19.8453 2186.64
20.2693 2270.42
20.6933 2308.5
21.1173 2244.67
21.5413 2331.79
21.9653 2319.43
22.3893 2356.01
22.8133 2395.6
23.2373 2506.01
23.6613 2398.39
24.0853 2499.14
24.5093 2523.02
24.9333 2540.23
25.3573 2572.84
25.7813 2664.72
26.2053 2663.14
26.6293 2638.61
27.0533 2640.39
27.4773 2691.06
27.9013 2758.17
28.3253 2809.06
28.7493 2797.94
29.1733 2879.97
29.5973 2835.04
30.0213 2835.01
30.4453 2929.67
30.8693 2962.66
31.2933 2978.82
31.7173 3008.11
32.1413 3078.18
32.5653 3046.42
32.9893 3126.17
33.4133 3146.77
33.8373 3138
34.2613 3181.46
34.6853 3214.7
35.1093 3245.58
35.5333 3326.35
35.9573 3352.04
36.3813 3373.98
36.8053 3354.96
37.2293 3474.07
37.6533 3467.24
38.0773 3423.69
38.5013 3533.63
38.9253 3534.89
39.3493 3595.79
39.7733 3570.05
40.1973 3687.02
40.6213 3652.88
41.0453 3643.95
41.4693 3611.16
41.8933 3738.52
42.3173 3765.94
42.7413 3868.18
43.1653 3792.02
43.5893 3802.83
44.0133 3797.08
44.4373 3850.32
44.8613 3860.42
45.2853 3935.38
45.7093 4010.24
46.1333 3899.09
46.5573 3895.45
46.9813 3910.29
47.4053 4080.36
47.8293 3944.11
48.2533 3997.15
48.6773 4019.75
49.1013 4085.77
49.5253 4144.64
49.9493 4311.88
50.3733 4359.82
50.7973 12722.4
51.2213 7070.12
51.6453 4334.12
52.0693 4354.89
52.4933 4225.64
52.9173 4216
53.3413 4346.84
53.7653 4283.7
54.1893 4339.94
54.6133 4368.99
55.0373 4282.35
55.4613 4283.65
55.8853 4356.07
56.3093 4346.44
56.7333 4373.21
57.1573 4497.11
57.5813 4422
58.0053 4530.19
58.4293 4565.26
58.8533 4679.89
59.2773 6557.73
59.7013 12847.2
60.1253 4793.37
60.5493 4657.18
60.9733 4554.31
61.3973 4608.95
61.8213 4531.14
62.2453 4634.17
62.6693 4587.24
63.0933 4734.35
63.5173 4727.37
63.9413 4783.95
64.3653 4616.65
64.7893 4792.32
65.2133 4753.19
65.6373 4808.82
66.0613 4687.73
66.4853 4811.21
66.9093 4787.16
67.3333 4829.25
67.7573 4946.99
68.1813 4834.11
68.6053 4914.3
69.0293 4965.01
69.4533 4973.29
69.8773 4928.61
70.3013 4912.51
70.7253 4998.73
71.1493 5077.46
71.5733 5086.47
71.9973 5069.97
72.4213 5178.22
72.8453 5044.13
73.2693 5165.54
73.6933 5205.59
74.1173 5298.02
74.5413 5250.37
74.9653 5312.27
75.3893 5248.64
75.8133 5285.9
76.2373 5338.38
76.6613 5379.56
77.0853 5286.59
77.5093 5359.72
77.9333 5458.68
78.3573 5569
78.7813 5735.8
79.2053 5599.28
79.6293 5551.38
80.0533 5503.37
80.4773 5566
80.9013 5731.57
81.3253 5688.56
81.7493 5689.89
82.1733 5746.97
82.5973 5749.21
83.0213 5788.46
83.4453 5763.96
83.8693 5832.32
84.2933 5819.04
84.7173 5805.11
85.1413 5843.71
85.5653 5843.85
85.9893 5753.96
86.4133 5884.62
86.8373 5960.24
87.2613 5922.52
87.6853 6045.82
88.1093 6153.49
88.5333 6595.37
88.9573 19321.2
89.3813 8241.73
89.8053 6300.5
90.2293 6119.73
90.6533 6139.22
91.0773 6124.48
91.5013 6292.75
91.9253 6229.32
92.3493 6106.09
92.7733 6273.44
93.1973 6256.88
93.6213 6306.21
94.0453 6286.49
94.4693 6365.11
94.8933 6311.26
95.3173 6446.56
95.7413 6508.09
96.1653 6682.2
96.5893 6457.6
97.0133 6519.04
97.4373 6430.1
97.8613 6496.14
98.2853 6615.33
98.7093 6643.83
99.1333 6601.34
99.5573 6582.33
99.9813 6695.84
100.405 6634.39
100.829 6724.64
101.253 6722.38
101.677 6654.89
102.101 6792.2
102.525 6886.03
102.949 6860.6
103.373 6921.9
103.797 6957.68
104.221 6853.4
104.645 6835.63
105.069 6987.88
105.493 6971.25
105.917 7016.13
106.341 7051.99
106.765 7095.66
107.189 7197.52
107.613 7125.37
108.037 7111.34
108.461 7263.7
108.885 7220.29
109.309 7356.75
109.733 7922.38
110.157 10219.8
110.581 15980.6
111.005 9875.38
111.429 7744.27
111.853 7506.37
112.277 7478
112.701 7457.66
113.125 7469.73
113.549 7591.13
113.973 7603.62
114.397 7540.77
114.821 7673.87
115.245 7723.11
115.669 7623.62
116.093 7624.01
116.517 7649.35
116.941 7758.47
117.365 7876.84
117.789 8242.74
118.213 11767.7
118.637 9731.79
119.061 7873.91
119.485 7789.28
119.909 0
119.962 0